Time	Ax	Ay	Az	Temperature
0.028	8.833	2.871	3.613	29.001
0.029	8.833	2.862	3.608	29.004
0.030	8.853	2.866	3.613	28.998
0.031	8.848	2.871	3.637	28.992
0.032	8.853	2.847	3.598	28.989
0.033	8.848	2.857	3.613	28.986
0.034	8.838	2.876	3.622	28.989
0.035	8.838	2.866	3.622	28.989
0.036	8.848	2.862	3.637	28.983
0.037	8.848	2.842	3.632	28.986
0.038	8.848	2.852	3.627	29.006
0.041	8.853	2.857	3.618	28.995
0.051	8.838	2.857	3.613	28.989
0.061	8.862	2.857	3.651	28.995
0.071	8.848	2.866	3.642	28.998
0.082	8.853	2.862	3.632	28.992
0.092	8.843	2.852	3.642	29.004
0.102	8.843	2.857	3.622	29.004
0.111	8.838	2.866	3.627	29.006
0.122	8.843	2.866	3.608	28.995
0.132	8.848	2.862	3.622	28.980
0.142	8.848	2.862	3.613	28.977
0.152	8.838	2.852	3.589	28.983
0.162	8.833	2.847	3.627	29.001
0.171	8.853	2.871	3.598	28.989
0.182	8.857	2.871	3.618	28.989
0.192	8.853	2.876	3.622	28.989
0.201	8.848	2.852	3.632	28.995
0.212	8.843	2.866	3.637	29.004
0.222	8.833	2.852	3.637	28.998
0.232	8.848	2.857	3.642	28.992
0.242	8.838	2.876	3.618	28.992
0.252	8.843	2.866	3.642	28.995
0.262	8.833	2.876	3.622	28.998
0.272	8.843	2.866	3.618	28.983
0.283	8.833	2.876	3.613	28.992
0.292	8.843	2.866	3.598	28.989
0.302	8.838	2.866	3.622	28.992
0.312	8.829	2.857	3.632	28.989
0.322	8.843	2.857	3.637	28.986
0.332	8.853	2.857	3.627	28.980
0.342	8.853	2.852	3.598	28.983
0.352	8.857	2.862	3.627	29.009
0.363	8.833	2.857	3.613	28.995
0.373	8.833	2.852	3.603	28.989
0.383	8.848	2.876	3.627	28.992
0.393	8.843	2.871	3.622	28.998
0.403	8.829	2.866	3.622	28.995
0.413	8.848	2.862	3.622	28.995
0.423	8.833	2.852	3.608	28.989
0.433	8.843	2.847	3.598	28.989
0.443	8.853	2.866	3.603	28.992
0.453	8.853	2.852	3.603	28.989
0.463	8.857	2.852	3.608	28.977
0.473	8.853	2.866	3.598	28.980
0.483	8.843	2.847	3.603	29.009
0.493	8.843	2.838	3.608	28.995
0.503	8.829	2.838	3.622	28.992
0.513	8.829	2.862	3.618	28.995
0.523	8.833	2.871	3.642	28.998
0.533	8.833	2.881	3.632	29.004
0.544	8.843	2.857	3.618	28.998
0.553	8.843	2.857	3.632	29.001
0.563	8.833	2.866	3.627	28.986
0.573	8.833	2.862	3.642	28.980
0.584	8.838	2.862	3.603	28.977
0.593	8.824	2.852	3.608	28.995
0.603	8.843	2.871	3.613	28.995
0.614	8.848	2.852	3.627	28.995
0.624	8.843	2.862	3.622	28.992
0.634	8.862	2.857	3.627	28.986
0.643	8.838	2.857	3.618	28.971
0.653	8.838	2.842	3.608	28.986
0.664	8.843	2.852	3.618	28.995
0.674	8.838	2.866	3.622	28.980
0.684	8.824	2.871	3.627	28.986
0.693	8.833	2.866	3.608	28.977
0.704	8.829	2.862	3.637	28.992
0.714	8.872	2.847	3.622	28.992
0.724	8.853	2.881	3.618	28.986
0.734	8.843	2.862	3.613	28.995
0.743	8.838	2.857	3.618	29.004
0.754	8.838	2.833	3.589	28.995
0.764	8.838	2.847	3.603	29.001
0.774	8.848	2.857	3.608	28.992
0.785	8.838	2.857	3.608	28.986
0.794	8.843	2.871	3.618	28.998
0.804	8.843	2.842	3.642	29.001
0.814	8.843	2.847	3.613	29.001
0.824	8.857	2.852	3.627	28.995
0.834	8.833	2.876	3.608	28.998
0.845	8.843	2.857	3.637	28.983
0.854	8.843	2.862	3.627	28.992
0.864	8.838	2.871	3.642	29.001
0.875	8.848	2.857	3.618	28.989
0.884	8.853	2.871	3.622	28.989
0.895	8.833	2.862	3.632	28.992
0.904	8.833	2.866	3.613	28.986
0.915	8.843	2.876	3.637	28.989
0.924	8.833	2.881	3.618	28.989
0.934	8.843	2.881	3.642	28.986
0.945	8.829	2.876	3.608	28.983
0.955	8.829	2.842	3.613	28.989
0.965	8.857	2.866	3.618	28.980
0.975	8.833	2.866	3.613	28.980
0.985	8.848	2.876	3.603	28.992
0.995	8.838	2.862	3.627	28.986
1.005	8.838	2.862	3.589	28.977
1.015	8.853	2.871	3.603	28.980
1.025	8.848	2.862	3.594	28.980
1.035	8.857	2.852	3.622	28.983
1.045	8.848	2.866	3.589	28.977
1.055	8.848	2.881	3.608	28.998
1.065	8.829	2.866	3.632	28.986
1.075	8.824	2.866	3.627	28.989
1.085	8.853	2.876	3.622	28.989
1.095	8.838	2.862	3.632	28.974
1.106	8.853	2.876	3.642	28.998
1.115	8.833	2.857	3.613	29.009
1.125	8.853	2.881	3.608	29.012
1.135	8.848	2.857	3.627	29.001
1.146	8.838	2.871	3.632	29.009
1.156	8.833	2.847	3.642	29.009
1.165	8.829	2.866	3.642	29.001
1.176	8.848	2.862	3.608	29.006
1.186	8.843	2.871	3.613	29.004
1.195	8.843	2.852	3.608	28.992
1.205	8.833	2.852	3.618	28.983
1.216	8.848	2.857	3.622	28.998
1.226	8.843	2.866	3.618	28.998
1.236	8.848	2.871	3.632	29.009
1.246	8.829	2.866	3.618	29.009
1.256	8.848	2.871	3.627	28.998
1.266	8.843	2.852	3.627	28.992
1.276	8.857	2.866	3.618	29.001
1.287	8.833	2.871	3.618	28.998
1.296	8.843	2.871	3.642	28.992
1.306	8.848	2.852	3.627	29.006
1.316	8.848	2.852	3.646	29.012
1.326	8.848	2.857	3.622	29.012
1.336	8.838	2.852	3.622	29.021
1.347	8.843	2.862	3.618	29.012
1.356	8.848	2.852	3.608	29.004
1.366	8.838	2.847	3.589	28.992
1.376	8.838	2.852	3.594	29.012
1.386	8.862	2.866	3.627	29.027
1.397	8.838	2.852	3.627	29.027
1.407	8.857	2.862	3.632	29.024
1.416	8.848	2.857	3.622	29.018
1.427	8.853	2.847	3.603	29.018
1.437	8.857	2.866	3.637	29.012
1.447	8.833	2.857	3.637	29.006
1.457	8.843	2.842	3.613	29.006
1.467	8.848	2.852	3.627	29.001
1.477	8.829	2.842	3.651	29.001
1.487	8.843	2.866	3.627	28.983
1.497	8.853	2.862	3.622	29.004
1.506	8.833	2.852	3.622	28.992
1.516	8.838	2.866	3.613	28.995
1.527	8.843	2.862	3.632	29.009
1.537	8.853	2.871	3.613	29.006
1.547	8.838	2.890	3.618	29.004
1.557	8.838	2.862	3.618	29.004
1.567	8.843	2.857	3.632	29.001
1.577	8.853	2.862	3.622	29.009
1.587	8.843	2.852	3.598	29.015
1.597	8.833	2.857	3.598	29.015
1.607	8.843	2.881	3.608	29.021
1.617	8.833	2.881	3.603	29.018
1.628	8.838	2.876	3.603	28.998
1.638	8.838	2.866	3.622	29.009
1.648	8.838	2.871	3.642	29.009
1.658	8.833	2.862	3.618	29.004
1.667	8.833	2.852	3.637	29.012
1.678	8.862	2.871	3.613	29.004
1.688	8.867	2.852	3.627	29.009
1.698	8.853	2.871	3.632	29.006
1.708	8.848	2.876	3.632	29.018
1.718	8.853	2.857	3.632	29.001
1.728	8.857	2.862	3.608	29.009
1.738	8.848	2.876	3.642	29.001
1.748	8.833	2.876	3.618	28.998
1.759	8.843	2.866	3.618	29.001
1.768	8.833	2.866	3.622	29.001
1.778	8.838	2.881	3.642	29.006
1.789	8.853	2.876	3.618	29.012
1.798	8.857	2.862	3.637	29.006
1.809	8.862	2.847	3.608	29.001
1.819	8.848	2.857	3.618	28.998
1.829	8.853	2.847	3.598	28.995
1.839	8.853	2.866	3.594	29.001
1.848	8.848	2.876	3.622	29.006
1.859	8.838	2.866	3.603	29.012
1.869	8.857	2.866	3.632	29.012
1.879	8.857	2.871	3.642	29.006
1.889	8.853	2.866	3.642	29.006
1.899	8.848	2.838	3.622	29.001
1.909	8.843	2.866	3.608	29.009
1.919	8.829	2.871	3.608	29.009
1.929	8.843	2.852	3.618	29.018
1.939	8.843	2.838	3.618	29.015
1.949	8.853	2.857	3.632	29.006
1.960	8.848	2.857	3.608	29.015
1.969	8.853	2.862	3.622	29.027
1.979	8.833	2.857	3.618	29.015
1.989	8.843	2.862	3.622	29.021
1.999	8.853	2.871	3.651	29.006
2.009	8.829	2.857	3.642	29.021
2.019	8.848	2.866	3.637	29.018
2.029	8.829	2.881	3.642	29.006
2.039	8.838	2.847	3.603	29.001
2.049	8.833	2.857	3.594	28.995
2.059	8.843	2.862	3.622	28.995
2.069	8.848	2.876	3.627	28.995
2.079	8.843	2.847	3.613	28.989
2.089	8.843	2.852	3.632	28.989
2.099	8.857	2.847	3.608	28.989
2.109	8.862	2.857	3.632	29.001
2.120	8.862	2.871	3.618	29.006
2.130	8.857	2.862	3.618	29.021
2.140	8.853	2.857	3.632	29.030
2.150	8.833	2.862	3.637	29.024
2.160	8.838	2.862	3.632	29.009
2.170	8.829	2.838	3.632	29.012
2.180	8.857	2.862	3.632	29.009
2.190	8.824	2.862	3.603	29.015
2.200	8.819	2.862	3.627	29.012
2.210	8.809	2.871	3.618	29.009
2.220	8.829	2.876	3.642	29.018
2.230	8.829	2.871	3.618	29.009
2.240	8.843	2.862	3.613	28.995
2.250	8.857	2.852	3.646	28.989
2.260	8.843	2.866	3.642	28.995
2.270	8.843	2.862	3.637	29.006
2.280	8.838	2.871	3.642	29.027
2.291	8.843	2.876	3.637	29.030
2.300	8.824	2.866	3.632	29.004
2.311	8.843	2.847	3.613	29.001
2.320	8.838	2.871	3.608	29.006
2.330	8.838	2.857	3.622	29.004
2.340	8.838	2.866	3.627	29.004
2.351	8.843	2.876	3.608	29.012
2.361	8.853	2.876	3.627	29.018
2.371	8.843	2.871	3.646	29.018
2.381	8.853	2.871	3.618	29.024
2.391	8.857	2.857	3.618	29.009
2.401	8.857	2.857	3.627	28.998
2.411	8.833	2.866	3.627	28.992
2.421	8.833	2.866	3.622	28.983
2.431	8.838	2.847	3.618	28.998
2.441	8.833	2.852	3.661	29.018
2.451	8.838	2.857	3.646	29.027
2.461	8.848	2.852	3.618	29.021
2.471	8.848	2.842	3.618	29.015
2.482	8.867	2.852	3.613	29.015
2.491	8.872	2.862	3.622	29.004
2.501	8.853	2.857	3.618	29.012
2.512	8.848	2.847	3.665	29.015
2.522	8.857	2.876	3.637	29.018
2.532	8.843	2.862	3.651	29.009
2.542	8.829	2.866	3.646	29.001
2.552	8.838	2.866	3.608	28.998
2.561	8.853	2.852	3.618	29.006
2.572	8.862	2.847	3.613	29.006
2.581	8.853	2.871	3.627	29.009
2.591	8.853	2.852	3.608	29.021
2.601	8.853	2.852	3.603	29.015
2.611	8.843	2.866	3.613	29.015
2.621	8.843	2.852	3.608	29.009
2.631	8.833	2.871	3.608	29.027
2.641	8.843	2.871	3.627	29.027
2.652	8.848	2.862	3.613	29.027
2.662	8.838	2.847	3.613	29.018
2.672	8.843	2.862	3.632	29.015
2.682	8.824	2.866	3.627	29.009
2.692	8.829	2.866	3.637	29.009
2.701	8.853	2.866	3.627	29.001
2.712	8.848	2.852	3.618	29.012
2.721	8.838	2.866	3.613	29.009
2.732	8.853	2.871	3.608	29.012
2.742	8.848	2.876	3.594	29.015
2.752	8.853	2.871	3.622	29.021
2.762	8.833	2.862	3.632	29.018
2.772	8.833	2.876	3.622	29.009
2.782	8.843	2.857	3.622	29.015
2.793	8.829	2.852	3.627	29.001
2.802	8.814	2.857	3.594	29.009
2.812	8.824	2.866	3.608	29.015
2.821	8.843	2.866	3.618	29.012
2.832	8.843	2.876	3.632	29.015
2.842	8.853	2.876	3.594	28.992
2.852	8.843	2.852	3.618	28.983
2.862	8.824	2.862	3.642	29.001
2.872	8.853	2.847	3.627	28.998
2.882	8.857	2.852	3.618	29.001
2.892	8.848	2.862	3.598	28.998
2.903	8.824	2.871	3.637	29.001
2.913	8.848	2.881	3.646	29.004
2.923	8.819	2.862	3.627	29.004
2.933	8.848	2.885	3.622	29.021
2.943	8.843	2.857	3.618	29.018
2.953	8.843	2.876	3.632	29.024
2.963	8.848	2.871	3.632	29.027
2.973	8.824	2.871	3.618	29.006
2.983	8.838	2.842	3.613	29.009
2.993	8.838	2.862	3.622	29.021
3.003	8.848	2.866	3.632	29.018
3.012	8.843	2.857	3.661	29.015
3.023	8.819	2.862	3.651	29.015
3.033	8.838	2.871	3.637	29.015
3.043	8.824	2.862	3.627	29.001
3.053	8.833	2.847	3.637	29.012
3.063	8.843	2.862	3.637	29.015
3.073	8.829	2.876	3.627	29.012
3.083	8.848	2.866	3.608	29.021
3.093	8.838	2.857	3.622	29.027
3.103	8.833	2.871	3.622	29.012
3.114	8.843	2.866	3.622	29.004
3.123	8.833	2.866	3.656	29.001
3.134	8.843	2.871	3.646	29.006
3.143	8.843	2.871	3.627	29.006
3.153	8.843	2.847	3.613	29.015
3.163	8.843	2.857	3.618	29.015
3.173	8.843	2.852	3.618	29.015
3.183	8.843	2.881	3.608	29.009
3.193	8.848	2.885	3.613	29.006
3.203	8.843	2.857	3.627	29.012
3.214	8.838	2.857	3.618	29.012
3.224	8.857	2.842	3.627	29.015
3.234	8.853	2.852	3.608	29.039
3.244	8.853	2.862	3.584	29.024
3.254	8.843	2.857	3.598	29.024
3.263	8.838	2.857	3.603	29.018
3.273	8.843	2.857	3.603	29.018
3.283	8.843	2.866	3.603	29.015
3.294	8.853	2.857	3.618	29.018
3.304	8.843	2.852	3.613	29.021
3.314	8.833	2.876	3.618	29.018
3.324	8.857	2.852	3.637	29.015
3.334	8.853	2.866	3.622	29.015
3.344	8.838	2.852	3.608	29.012
3.354	8.843	2.857	3.632	29.015
3.364	8.843	2.842	3.651	29.015
3.374	8.848	2.842	3.603	29.024
3.384	8.848	2.862	3.622	29.042
3.394	8.853	2.847	3.618	29.018
3.404	8.843	2.857	3.637	29.021
3.414	8.829	2.857	3.622	29.015
3.425	8.843	2.852	3.642	29.021
3.435	8.843	2.862	3.622	29.027
3.445	8.862	2.862	3.608	29.021
3.455	8.829	2.871	3.627	29.009
3.465	8.848	2.866	3.637	29.006
3.474	8.853	2.852	3.618	29.012
3.484	8.824	2.847	3.622	29.015
3.494	8.848	2.842	3.608	29.018
3.505	8.833	2.871	3.622	29.027
3.515	8.843	2.866	3.613	29.021
3.525	8.838	2.862	3.632	29.012
3.535	8.862	2.857	3.627	29.012
3.545	8.862	2.876	3.637	29.015
3.555	8.848	2.866	3.613	29.024
3.565	8.838	2.857	3.618	29.024
3.575	8.867	2.866	3.598	29.024
3.585	8.848	2.847	3.608	29.009
3.595	8.833	2.857	3.618	29.004
3.605	8.838	2.857	3.637	29.009
3.615	8.824	2.862	3.642	29.021
3.625	8.843	2.862	3.613	29.012
3.635	8.843	2.847	3.598	29.012
3.645	8.862	2.881	3.627	29.012
3.656	8.829	2.871	3.637	29.009
3.666	8.829	2.881	3.637	28.998
3.676	8.843	2.862	3.642	29.012
3.686	8.843	2.876	3.622	29.024
3.695	8.833	2.862	3.622	29.027
3.705	8.838	2.871	3.603	29.015
3.715	8.862	2.866	3.637	29.006
3.726	8.857	2.862	3.627	29.033
3.736	8.857	2.866	3.632	29.033
3.746	8.843	2.852	3.627	29.039
3.756	8.843	2.833	3.622	29.039
3.766	8.843	2.828	3.656	29.030
3.776	8.853	2.866	3.622	29.018
3.786	8.848	2.866	3.618	29.027
3.797	8.843	2.857	3.603	29.027
3.807	8.843	2.876	3.642	29.024
3.817	8.838	2.862	3.642	29.030
3.826	8.819	2.852	3.646	29.015
3.836	8.829	2.852	3.632	29.021
3.846	8.833	2.852	3.622	29.027
3.856	8.838	2.862	3.603	29.015
3.866	8.833	2.871	3.622	29.012
3.876	8.848	2.876	3.637	29.009
3.886	8.833	2.852	3.627	29.024
3.896	8.833	2.871	3.637	29.030
3.907	8.824	2.842	3.646	29.033
3.917	8.833	2.866	3.608	29.024
3.926	8.843	2.847	3.603	29.024
3.936	8.838	2.866	3.618	29.024
3.946	8.829	2.871	3.622	29.027
3.957	8.838	2.857	3.651	29.056
3.967	8.838	2.842	3.637	29.042
3.977	8.824	2.857	3.613	29.033
3.987	8.853	2.852	3.637	29.018
3.997	8.862	2.847	3.622	29.033
4.007	8.853	2.871	3.618	29.039
4.017	8.848	2.862	3.632	29.039
4.027	8.853	2.862	3.646	29.015
4.037	8.838	2.876	3.622	29.018
4.047	8.838	2.866	3.618	29.027
4.057	8.843	2.857	3.627	29.024
4.067	8.833	2.842	3.627	29.024
4.077	8.843	2.857	3.642	29.027
4.087	8.853	2.881	3.622	29.033
4.097	8.848	2.871	3.603	29.021
4.107	8.838	2.866	3.656	29.012
4.117	8.814	2.876	3.656	29.024
4.127	8.829	2.852	3.632	29.030
4.138	8.838	2.852	3.637	29.021
4.148	8.829	2.862	3.622	29.024
4.158	8.843	2.852	3.622	29.018
4.168	8.838	2.862	3.646	29.027
4.178	8.843	2.857	3.622	29.042
4.188	8.838	2.866	3.622	29.036
4.198	8.853	2.866	3.632	29.027
4.208	8.829	2.852	3.618	29.018
4.217	8.824	2.838	3.622	29.024
4.228	8.843	2.842	3.603	29.030
4.237	8.833	2.866	3.618	29.027
4.248	8.848	2.852	3.632	29.027
4.258	8.833	2.862	3.632	29.030
4.268	8.843	2.857	3.632	29.015
4.278	8.857	2.862	3.627	29.012
4.288	8.848	2.871	3.637	29.027
4.299	8.833	2.876	3.632	29.027
4.308	8.838	2.876	3.637	29.021
4.319	8.857	2.857	3.618	29.021
4.328	8.843	2.857	3.603	29.021
4.338	8.833	2.857	3.618	29.021
4.348	8.838	2.862	3.618	29.024
4.358	8.819	2.857	3.613	29.027
4.369	8.824	2.871	3.627	29.027
4.378	8.843	2.852	3.622	29.030
4.389	8.829	2.857	3.627	29.039
4.399	8.848	2.871	3.622	29.024
4.409	8.843	2.871	3.627	29.015
4.418	8.848	2.881	3.665	29.018
4.428	8.833	2.866	3.637	29.021
4.438	8.838	2.862	3.642	29.021
4.448	8.829	2.862	3.594	29.024
4.459	8.853	2.852	3.622	29.027
4.469	8.833	2.857	3.579	29.033
4.479	8.843	2.847	3.622	29.039
4.489	8.843	2.862	3.637	29.030
4.499	8.853	2.866	3.594	29.015
4.509	8.833	2.847	3.608	29.018
4.519	8.829	2.876	3.642	29.030
4.529	8.833	2.866	3.608	29.042
4.539	8.833	2.862	3.618	29.030
4.549	8.853	2.866	3.598	29.033
4.560	8.853	2.857	3.622	29.039
4.569	8.857	2.866	3.622	29.036
4.579	8.867	2.857	3.613	29.042
4.589	8.853	2.862	3.584	29.042
4.599	8.843	2.866	3.637	29.042
4.609	8.824	2.852	3.632	29.042
4.620	8.824	2.857	3.618	29.045
4.629	8.853	2.862	3.613	29.039
4.639	8.829	2.876	3.603	29.036
4.649	8.838	2.876	3.618	29.051
4.660	8.833	2.866	3.598	29.036
4.670	8.843	2.862	3.627	29.027
4.680	8.838	2.885	3.622	29.030
4.690	8.853	2.881	3.618	29.018
4.700	8.853	2.876	3.603	29.036
4.710	8.843	2.852	3.584	29.042
4.720	8.857	2.852	3.594	29.039
4.729	8.843	2.876	3.627	29.036
4.740	8.848	2.885	3.627	29.045
4.749	8.838	2.876	3.637	29.045
4.760	8.843	2.871	3.632	29.045
4.770	8.848	2.885	3.632	29.036
4.780	8.843	2.862	3.622	29.039
4.790	8.867	2.842	3.622	29.048
4.801	8.838	2.871	3.627	29.036
4.810	8.838	2.857	3.598	29.024
4.820	8.833	2.847	3.594	29.021
4.830	8.833	2.847	3.598	29.024
4.840	8.843	2.857	3.608	29.030
4.850	8.843	2.857	3.603	29.030
4.860	8.848	2.890	3.613	29.027
4.870	8.838	2.876	3.632	29.033
4.879	8.833	2.871	3.618	29.039
4.889	8.838	2.852	3.622	29.030
4.900	8.843	2.857	3.589	29.033
4.910	8.848	2.852	3.589	29.036
4.920	8.843	2.866	3.598	29.033
4.930	8.843	2.871	3.608	29.045
4.941	8.843	2.866	3.618	29.042
4.951	8.848	2.862	3.603	29.048
4.960	8.848	2.857	3.613	29.045
4.970	8.843	2.876	3.608	29.051
4.980	8.838	2.876	3.618	29.048
4.990	8.853	2.890	3.622	29.039
5.000	8.853	2.866	3.598	29.033
5.010	8.853	2.876	3.627	29.033
5.020	8.848	2.857	3.646	29.045
5.031	8.843	2.857	3.627	29.048
5.041	8.848	2.857	3.622	29.051
5.051	8.843	2.881	3.622	29.048
5.060	8.833	2.876	3.613	29.036
5.070	8.853	2.857	3.632	29.039
5.081	8.848	2.866	3.603	29.030
5.091	8.843	2.866	3.627	29.033
5.101	8.833	2.871	3.613	29.030
5.111	8.819	2.866	3.622	29.042
5.121	8.857	2.890	3.598	29.048
5.130	8.833	2.866	3.627	29.033
5.140	8.838	2.881	3.651	29.036
5.150	8.853	2.866	3.637	29.036
5.161	8.853	2.857	3.603	29.045
5.171	8.853	2.871	3.603	29.056
5.181	8.838	2.881	3.618	29.045
5.191	8.824	2.871	3.594	29.039
5.201	8.843	2.876	3.603	29.039
5.211	8.838	2.881	3.579	29.062
5.221	8.829	2.857	3.613	29.059
5.232	8.838	2.842	3.618	29.048
5.242	8.848	2.847	3.608	29.051
5.251	8.829	2.852	3.627	29.042
5.262	8.862	2.862	3.622	29.030
5.271	8.848	2.876	3.598	29.033
5.281	8.843	2.847	3.651	29.027
5.291	8.862	2.866	3.622	29.042
5.303	8.824	2.885	3.603	29.036
5.312	8.819	2.862	3.608	29.042
5.322	8.843	2.866	3.608	29.039
5.332	8.848	2.852	3.627	29.039
5.342	8.838	2.847	3.661	29.051
5.352	8.838	2.866	3.646	29.042
5.362	8.848	2.857	3.618	29.039
5.372	8.833	2.852	3.613	29.042
5.382	8.838	2.857	3.632	29.045
5.392	8.857	2.866	3.637	29.059
5.402	8.848	2.862	3.646	29.051
5.412	8.838	2.857	3.637	29.048
5.422	8.829	2.876	3.632	29.048
5.432	8.824	2.871	3.632	29.048
5.443	8.824	2.857	3.627	29.033
5.452	8.848	2.871	3.613	29.036
5.462	8.838	2.862	3.622	29.039
5.472	8.848	2.866	3.642	29.045
5.482	8.833	2.876	3.642	29.030
5.493	8.843	2.876	3.618	29.024
5.503	8.838	2.857	3.608	29.045
5.513	8.829	2.857	3.618	29.045
5.523	8.833	2.862	3.622	29.048
5.533	8.833	2.857	3.622	29.056
5.543	8.829	2.862	3.637	29.059
5.553	8.833	2.852	3.637	29.048
5.563	8.829	2.852	3.627	29.036
5.573	8.848	2.842	3.637	29.036
5.583	8.824	2.862	3.646	29.048
5.593	8.829	2.862	3.613	29.062
5.602	8.824	2.871	3.598	29.059
5.612	8.848	2.862	3.622	29.059
5.623	8.838	2.862	3.632	29.056
5.633	8.819	2.842	3.613	29.045
5.642	8.819	2.852	3.637	29.045
5.653	8.838	2.862	3.627	29.045
5.663	8.838	2.866	3.613	29.039
5.673	8.833	2.847	3.608	29.039
5.683	8.848	2.857	3.622	29.042
5.693	8.838	2.862	3.632	29.045
5.703	8.843	2.847	3.646	29.048
5.712	8.843	2.876	3.622	29.045
5.724	8.848	2.862	3.622	29.042
5.734	8.862	2.857	3.608	29.039
5.743	8.857	2.862	3.627	29.033
5.753	8.857	2.871	3.642	29.039
5.763	8.862	2.862	3.584	29.048
5.773	8.848	2.862	3.618	29.039
5.783	8.833	2.871	3.575	29.036
5.793	8.833	2.881	3.589	29.015
5.805	8.838	2.871	3.627	29.021
5.814	8.833	2.876	3.642	29.036
5.823	8.848	2.857	3.608	29.045
5.834	8.853	2.881	3.627	29.039
5.844	8.843	2.866	3.632	29.033
5.854	8.838	2.862	3.622	29.045
5.863	8.857	2.862	3.618	29.054
5.873	8.838	2.866	3.632	29.039
5.884	8.843	2.862	3.618	29.039
5.894	8.838	2.862	3.618	29.042
5.904	8.843	2.857	3.603	29.042
5.914	8.829	2.871	3.627	29.048
5.924	8.833	2.857	3.622	29.045
5.934	8.829	2.857	3.613	29.045
5.944	8.838	2.866	3.613	29.033
5.954	8.838	2.847	3.613	29.030
5.964	8.838	2.857	3.608	29.033
5.974	8.829	2.862	3.642	29.036
5.984	8.824	2.847	3.646	29.042
5.994	8.838	2.866	3.627	29.048
6.004	8.853	2.857	3.622	29.051
6.014	8.848	2.852	3.632	29.048
6.025	8.843	2.847	3.646	29.039
6.034	8.843	2.852	3.618	29.045
6.044	8.838	2.862	3.622	29.036
6.054	8.833	2.871	3.618	29.039
6.064	8.829	2.852	3.603	29.048
6.074	8.853	2.871	3.632	29.045
6.085	8.853	2.866	3.618	29.030
6.094	8.843	2.881	3.618	29.033
6.104	8.833	2.857	3.608	29.059
6.115	8.838	2.862	3.613	29.051
6.125	8.848	2.862	3.608	29.048
6.135	8.843	2.862	3.618	29.042
6.144	8.829	2.852	3.637	29.033
6.155	8.838	2.871	3.646	29.021
6.165	8.833	2.871	3.646	29.030
6.175	8.833	2.866	3.627	29.048
6.185	8.848	2.876	3.575	29.048
6.195	8.838	2.852	3.622	29.042
6.205	8.843	2.862	3.618	29.045
6.216	8.848	2.876	3.642	29.042
6.225	8.848	2.890	3.637	29.036
6.235	8.862	2.890	3.627	29.030
6.245	8.843	2.881	3.637	29.036
6.255	8.872	2.866	3.622	29.054
6.266	8.862	2.857	3.632	29.051
6.276	8.838	2.876	3.627	29.051
6.286	8.833	2.866	3.651	29.051
6.296	8.853	2.885	3.627	29.042
6.307	8.853	2.871	3.622	29.039
6.315	8.843	2.862	3.642	29.062
6.325	8.838	2.866	3.651	29.045
6.336	8.833	2.881	3.622	29.042
6.346	8.833	2.881	3.598	29.051
6.356	8.833	2.866	3.627	29.042
6.365	8.819	2.862	3.608	29.045
6.375	8.829	2.852	3.613	29.045
6.385	8.843	2.862	3.613	29.051
6.396	8.843	2.862	3.622	29.051
6.406	8.843	2.862	3.622	29.051
6.416	8.829	2.852	3.608	29.042
6.426	8.857	2.871	3.598	29.054
6.436	8.838	2.852	3.642	29.045
6.446	8.833	2.866	3.656	29.030
6.456	8.819	2.862	3.646	29.045
6.466	8.829	2.847	3.642	29.048
6.476	8.848	2.852	3.603	29.048
6.486	8.862	2.881	3.618	29.048
6.496	8.838	2.862	3.642	29.048
6.507	8.843	2.857	3.627	29.048
6.516	8.853	2.866	3.603	29.042
6.526	8.829	2.885	3.608	29.039
6.537	8.824	2.905	3.627	29.045
6.547	8.853	2.876	3.598	29.042
6.557	8.848	2.862	3.608	29.054
6.567	8.848	2.871	3.627	29.042
6.576	8.862	2.871	3.608	29.033
6.586	8.843	2.876	3.651	29.030
6.597	8.829	2.871	3.603	29.033
6.607	8.838	2.862	3.603	29.045
6.617	8.833	2.857	3.613	29.048
6.626	8.833	2.866	3.613	29.056
6.637	8.833	2.871	3.608	29.054
6.647	8.838	2.852	3.608	29.042
6.657	8.848	2.871	3.622	29.051
6.667	8.824	2.866	3.646	29.054
6.677	8.829	2.857	3.651	29.039
6.687	8.838	2.871	3.632	29.030
6.697	8.829	2.885	3.637	29.048
6.707	8.833	2.857	3.637	29.048
6.717	8.829	2.852	3.618	29.042
6.727	8.853	2.847	3.632	29.042
6.737	8.838	2.852	3.622	29.045
6.748	8.857	2.862	3.608	29.045
6.757	8.876	2.862	3.618	29.039
6.767	8.843	2.852	3.627	29.042
6.777	8.838	2.857	3.622	29.051
6.788	8.853	2.871	3.632	29.039
6.798	8.857	2.862	3.642	29.027
6.808	8.838	2.876	3.613	29.048
6.818	8.853	2.862	3.618	29.056
6.827	8.862	2.866	3.608	29.056
6.838	8.829	2.881	3.632	29.054
6.848	8.829	2.866	3.642	29.048
6.858	8.848	2.876	3.627	29.059
6.868	8.833	2.881	3.613	29.051
6.878	8.848	2.842	3.613	29.036
6.888	8.857	2.871	3.598	29.036
6.898	8.867	2.857	3.622	29.033
6.908	8.857	2.866	3.622	29.021
6.918	8.862	2.857	3.622	29.039
6.928	8.843	2.852	3.603	29.051
6.938	8.833	2.871	3.627	29.054
6.948	8.857	2.885	3.642	29.042
6.958	8.857	2.876	3.622	29.045
6.968	8.862	2.862	3.603	29.051
6.978	8.853	2.857	3.603	29.036
6.988	8.853	2.857	3.642	29.048
6.998	8.833	2.852	3.622	29.054
7.008	8.857	2.881	3.642	29.059
7.018	8.857	2.871	3.622	29.048
7.028	8.833	2.857	3.594	29.039
7.039	8.819	2.847	3.613	29.039
7.048	8.838	2.871	3.627	29.048
7.059	8.848	2.871	3.608	29.056
7.069	8.853	2.847	3.608	29.062
7.079	8.853	2.852	3.603	29.056
7.089	8.843	2.847	3.656	29.042
7.099	8.838	2.852	3.598	29.042
7.108	8.838	2.866	3.618	29.054
7.119	8.838	2.866	3.618	29.036
7.129	8.848	2.885	3.627	29.056
7.139	8.853	2.890	3.608	29.054
7.149	8.833	2.866	3.632	29.051
7.159	8.843	2.876	3.627	29.051
7.169	8.838	2.866	3.632	29.048
7.179	8.853	2.862	3.627	29.045
7.189	8.843	2.852	3.637	29.039
7.199	8.857	2.857	3.608	29.051
7.210	8.857	2.862	3.618	29.051
7.219	8.843	2.862	3.618	29.048
7.229	8.848	2.857	3.603	29.039
7.239	8.853	2.852	3.632	29.039
7.249	8.833	2.871	3.627	29.042
7.259	8.824	2.871	3.627	29.051
7.269	8.843	2.862	3.613	29.048
7.279	8.838	2.847	3.613	29.048
7.289	8.829	2.852	3.627	29.036
7.300	8.838	2.866	3.618	29.045
7.310	8.833	2.862	3.627	29.039
7.320	8.857	2.847	3.637	29.042
7.329	8.848	2.876	3.661	29.036
7.340	8.843	2.885	3.622	29.056
7.350	8.843	2.862	3.603	29.042
7.360	8.848	2.876	3.608	29.033
7.370	8.838	2.871	3.627	29.033
7.380	8.833	2.866	3.632	29.039
7.390	8.848	2.862	3.632	29.051
7.400	8.843	2.885	3.632	29.056
7.410	8.829	2.876	3.598	29.071
7.420	8.833	2.852	3.613	29.059
7.430	8.829	2.857	3.632	29.048
7.440	8.824	2.862	3.632	29.039
7.450	8.843	2.862	3.598	29.042
7.460	8.824	2.862	3.594	29.045
7.470	8.824	2.885	3.608	29.039
7.480	8.833	2.866	3.632	29.045
7.491	8.857	2.857	3.627	29.048
7.501	8.843	2.852	3.627	29.048
7.511	8.853	2.862	3.632	29.051
7.520	8.838	2.866	3.618	29.042
7.530	8.824	2.866	3.613	29.042
7.540	8.843	2.862	3.598	29.042
7.550	8.843	2.852	3.613	29.045
7.561	8.829	2.847	3.632	29.036
7.571	8.833	2.857	3.627	29.033
7.581	8.838	2.866	3.646	29.036
7.591	8.843	2.871	3.603	29.045
7.601	8.862	2.871	3.618	29.054
7.611	8.857	2.890	3.608	29.056
7.621	8.838	2.871	3.618	29.042
7.631	8.843	2.857	3.608	29.042
7.641	8.833	2.871	3.613	29.048
7.651	8.824	2.866	3.613	29.039
7.661	8.829	2.852	3.603	29.045
7.671	8.843	2.857	3.622	29.056
7.681	8.848	2.871	3.627	29.054
7.691	8.857	2.833	3.594	29.036
7.701	8.857	2.852	3.608	29.039
7.711	8.848	2.871	3.608	29.051
7.721	8.843	2.857	3.613	29.054
7.731	8.843	2.866	3.613	29.042
7.741	8.829	2.881	3.598	29.054
7.751	8.843	2.881	3.627	29.062
7.761	8.848	2.885	3.622	29.039
7.771	8.838	2.857	3.622	29.039
7.781	8.843	2.852	3.603	29.042
7.791	8.833	2.842	3.627	29.045
7.802	8.848	2.862	3.613	29.056
7.812	8.833	2.876	3.637	29.054
7.821	8.829	2.871	3.656	29.054
7.831	8.833	2.862	3.598	29.051
7.842	8.857	2.862	3.627	29.048
7.851	8.853	2.876	3.594	29.056
7.862	8.848	2.890	3.618	29.042
7.871	8.843	2.871	3.637	29.054
7.881	8.833	2.866	3.608	29.045
7.891	8.843	2.852	3.622	29.045
7.901	8.853	2.862	3.618	29.048
7.913	8.829	2.866	3.627	29.054
7.922	8.829	2.876	3.632	29.051
7.933	8.838	2.881	3.622	29.048
7.942	8.824	2.881	3.632	29.056
7.952	8.833	2.866	3.646	29.059
7.962	8.843	2.852	3.594	29.048
7.972	8.848	2.862	3.627	29.039
7.982	8.838	2.842	3.618	29.039
7.992	8.848	2.857	3.651	29.039
8.002	8.843	2.857	3.618	29.024
8.012	8.857	2.876	3.622	29.042
8.022	8.838	2.866	3.618	29.045
8.032	8.838	2.862	3.613	29.056
8.042	8.824	2.862	3.632	29.048
8.052	8.843	2.866	3.632	29.056
8.062	8.848	2.866	3.642	29.059
8.072	8.838	2.876	3.632	29.045
8.083	8.833	2.838	3.618	29.039
8.093	8.843	2.857	3.651	29.039
8.103	8.843	2.866	3.613	29.045
8.113	8.843	2.881	3.622	29.054
8.123	8.848	2.885	3.632	29.045
8.133	8.838	2.876	3.594	29.042
8.144	8.838	2.857	3.622	29.039
8.153	8.853	2.876	3.613	29.042
8.163	8.862	2.885	3.642	29.048
8.173	8.829	2.866	3.632	29.045
8.183	8.843	2.857	3.618	29.051
8.193	8.848	2.871	3.632	29.045
8.203	8.833	2.871	3.632	29.042
8.213	8.824	2.871	3.661	29.045
8.224	8.833	2.881	3.613	29.033
8.233	8.838	2.890	3.608	29.042
8.243	8.848	2.866	3.613	29.051
8.253	8.848	2.871	3.589	29.062
8.263	8.843	2.876	3.627	29.048
8.274	8.848	2.871	3.608	29.036
8.284	8.838	2.871	3.618	29.042
8.294	8.819	2.862	3.603	29.033
8.304	8.819	2.852	3.642	29.036
8.314	8.843	2.871	3.627	29.030
8.324	8.829	2.881	3.618	29.039
8.334	8.833	2.852	3.618	29.045
8.344	8.814	2.852	3.622	29.030
8.354	8.857	2.852	3.589	29.033
8.364	8.843	2.857	3.608	29.045
8.374	8.838	2.866	3.632	29.042
8.384	8.833	2.871	3.608	29.039
8.394	8.814	2.866	3.627	29.051
8.404	8.853	2.862	3.637	29.054
8.414	8.862	2.852	3.637	29.033
8.424	8.829	2.847	3.627	29.042
8.434	8.824	2.847	3.632	29.045
8.444	8.824	2.866	3.618	29.051
8.454	8.824	2.857	3.594	29.051
8.464	8.833	2.876	3.608	29.042
8.474	8.838	2.881	3.613	29.033
8.485	8.853	2.866	3.608	29.033
8.494	8.848	2.885	3.642	29.048
8.504	8.838	2.885	3.632	29.036
8.514	8.838	2.876	3.642	29.036
8.524	8.862	2.866	3.622	29.048
8.534	8.843	2.871	3.608	29.048
8.545	8.829	2.862	3.618	29.048
8.555	8.853	2.862	3.637	29.048
8.565	8.843	2.862	3.584	29.048
8.575	8.843	2.847	3.608	29.054
8.585	8.824	2.857	3.618	29.039
8.595	8.809	2.857	3.627	29.042
8.605	8.838	2.862	3.608	29.042
8.615	8.857	2.862	3.603	29.042
8.625	8.848	2.866	3.627	29.039
8.635	8.848	2.871	3.613	29.045
8.645	8.843	2.885	3.613	29.056
8.656	8.843	2.885	3.622	29.054
8.665	8.862	2.857	3.637	29.054
8.675	8.843	2.862	3.613	29.062
8.685	8.838	2.871	3.613	29.048
8.695	8.819	2.852	3.632	29.033
8.705	8.853	2.862	3.598	29.030
8.715	8.857	2.857	3.637	29.036
8.725	8.819	2.862	3.632	29.030
8.735	8.853	2.862	3.618	29.039
8.745	8.848	2.862	3.642	29.036
8.755	8.848	2.852	3.646	29.039
8.765	8.848	2.852	3.637	29.036
8.775	8.848	2.862	3.613	29.036
8.785	8.838	2.857	3.627	29.045
8.795	8.833	2.862	3.622	29.030
8.805	8.829	2.876	3.594	29.051
8.817	8.857	2.871	3.622	29.051
8.825	8.833	2.866	3.608	29.048
8.835	8.829	2.866	3.651	29.054
8.846	8.848	2.862	3.637	29.051
8.856	8.843	2.871	3.622	29.042
8.865	8.848	2.871	3.622	29.051
8.875	8.848	2.876	3.622	29.039
8.886	8.829	2.866	3.618	29.033
8.896	8.829	2.866	3.646	29.039
8.905	8.829	2.862	3.608	29.042
8.916	8.843	2.857	3.598	29.042
8.926	8.853	2.862	3.618	29.033
8.935	8.838	2.862	3.622	29.036
8.946	8.857	2.862	3.632	29.045
8.956	8.833	2.866	3.618	29.039
8.966	8.843	2.862	3.632	29.021
8.976	8.838	2.876	3.627	29.033
8.986	8.843	2.871	3.613	29.033
8.996	8.843	2.857	3.622	29.039
9.006	8.829	2.857	3.646	29.033
9.016	8.829	2.866	3.622	29.042
9.026	8.833	2.862	3.613	29.054
9.036	8.833	2.842	3.632	29.059
9.046	8.843	2.876	3.608	29.048
9.056	8.857	2.876	3.622	29.033
9.066	8.848	2.871	3.622	29.036
9.076	8.857	2.857	3.589	29.039
9.086	8.857	2.852	3.608	29.039
9.096	8.838	2.857	3.627	29.030
9.107	8.829	2.871	3.608	29.027
9.117	8.853	2.852	3.594	29.030
9.126	8.853	2.871	3.622	29.024
9.136	8.843	2.866	3.627	29.024
9.146	8.848	2.862	3.632	29.027
9.157	8.867	2.862	3.642	29.030
9.167	8.843	2.862	3.632	29.027
9.177	8.853	2.876	3.594	29.039
9.187	8.843	2.871	3.622	29.036
9.197	8.833	2.871	3.637	29.033
9.207	8.843	2.857	3.632	29.027
9.217	8.857	2.866	3.627	29.033
9.227	8.838	2.862	3.622	29.042
9.237	8.848	2.857	3.622	29.030
9.247	8.843	2.876	3.618	29.033
9.257	8.829	2.871	3.618	29.051
9.267	8.853	2.871	3.603	29.045
9.277	8.843	2.871	3.603	29.039
9.287	8.838	2.876	3.603	29.030
9.297	8.843	2.866	3.613	29.030
9.308	8.833	2.862	3.613	29.048
9.319	8.829	2.852	3.584	29.036
9.328	8.848	2.885	3.622	29.039
9.338	8.848	2.871	3.613	29.036
9.348	8.848	2.866	3.613	29.033
9.358	8.848	2.852	3.627	29.033
9.368	8.853	2.857	3.603	29.051
9.378	8.833	2.862	3.632	29.039
9.388	8.857	2.876	3.603	29.033
9.398	8.833	2.862	3.622	29.036
9.408	8.853	2.871	3.632	29.045
9.418	8.862	2.876	3.632	29.045
9.428	8.843	2.862	3.627	29.036
9.438	8.838	2.852	3.646	29.024
9.448	8.843	2.881	3.618	29.036
9.458	8.872	2.881	3.627	29.051
9.468	8.838	2.852	3.627	29.051
9.479	8.862	2.866	3.627	29.030
9.488	8.833	2.862	3.622	29.030
9.498	8.843	2.881	3.627	29.045
9.508	8.833	2.866	3.637	29.039
9.518	8.819	2.885	3.646	29.030
9.528	8.833	2.876	3.618	29.033
9.539	8.833	2.881	3.594	29.042
9.549	8.843	2.847	3.598	29.039
9.559	8.853	2.862	3.594	29.048
9.569	8.838	2.871	3.613	29.045
9.578	8.848	2.862	3.622	29.048
9.588	8.829	2.852	3.613	29.054
9.598	8.838	2.876	3.589	29.054
9.608	8.838	2.866	3.627	29.054
9.619	8.857	2.866	3.603	29.045
9.629	8.843	2.876	3.584	29.042
9.639	8.824	2.857	3.608	29.030
9.649	8.833	2.881	3.642	29.042
9.659	8.838	2.871	3.622	29.042
9.669	8.833	2.881	3.622	29.042
9.679	8.853	2.838	3.603	29.027
9.689	8.857	2.862	3.608	29.027
9.699	8.833	2.857	3.584	29.027
9.709	8.848	2.871	3.622	29.033
9.719	8.848	2.857	3.637	29.027
9.729	8.867	2.857	3.598	29.033
9.739	8.848	2.852	3.622	29.036
9.749	8.843	2.862	3.627	29.042
9.760	8.838	2.847	3.632	29.036
9.769	8.838	2.876	3.603	29.045
9.779	8.833	2.890	3.627	29.039
9.789	8.838	2.852	3.598	29.036
9.799	8.843	2.842	3.622	29.033
9.809	8.833	2.866	3.618	29.033
9.820	8.833	2.881	3.622	29.027
9.829	8.862	2.871	3.627	29.033
9.839	8.848	2.862	3.627	29.027
9.849	8.824	2.852	3.627	29.042
9.859	8.833	2.852	3.642	29.039
9.870	8.848	2.862	3.603	29.033
9.880	8.843	2.862	3.603	29.030
9.890	8.838	2.842	3.637	29.036
9.900	8.833	2.866	3.622	29.036
9.910	8.838	2.857	3.594	29.027
9.920	8.853	2.862	3.618	29.027
9.930	8.843	2.866	3.618	29.015
9.940	8.829	2.866	3.622	29.024
9.950	8.829	2.866	3.622	29.024
9.960	8.843	2.857	3.627	29.033
9.970	8.857	2.871	3.618	29.042
9.980	8.833	2.885	3.632	29.033
9.990	8.838	2.852	3.622	29.042
10.000	8.824	2.862	3.651	29.033
10.010	8.833	2.842	3.613	29.036
10.020	8.829	2.871	3.637	29.030
10.030	8.833	2.862	3.642	29.039
10.040	8.853	2.857	3.594	29.030
10.050	8.824	2.847	3.642	29.030
10.060	8.857	2.890	3.622	29.030
10.070	8.862	2.857	3.618	29.033
10.080	8.857	2.847	3.637	29.015
10.090	8.824	2.852	3.622	29.021
10.100	8.814	2.866	3.608	29.027
10.110	8.853	2.881	3.598	29.036
10.120	8.843	2.876	3.637	29.036
10.130	8.833	2.862	3.622	29.033
10.140	8.833	2.842	3.608	29.039
10.150	8.829	2.857	3.627	29.048
10.161	8.848	2.857	3.608	29.042
10.170	8.833	2.871	3.613	29.042
10.181	8.843	2.838	3.637	29.045
10.191	8.853	2.862	3.637	29.039
10.201	8.853	2.857	3.637	29.039
10.211	8.857	2.866	3.603	29.033
10.221	8.862	2.862	3.618	29.051
10.231	8.853	2.862	3.618	29.030
10.241	8.843	2.852	3.646	29.015
10.251	8.853	2.881	3.637	29.027
10.261	8.843	2.881	3.632	29.012
10.271	8.829	2.871	3.618	29.015
10.281	8.833	2.862	3.613	29.024
10.291	8.833	2.876	3.613	29.036
10.301	8.833	2.871	3.627	29.036
10.311	8.867	2.885	3.637	29.033
10.323	8.886	2.900	3.589	29.033
10.332	8.814	2.838	3.613	29.027
10.342	8.900	2.895	3.618	29.036
10.352	8.829	2.833	3.656	29.042
10.362	8.843	2.847	3.627	29.024
10.372	8.814	2.838	3.632	29.018
10.382	8.857	2.885	3.613	29.012
10.392	8.800	2.823	3.651	29.027
10.402	8.824	2.862	3.627	29.039
10.412	8.886	2.914	3.594	29.048
10.422	8.862	2.838	3.632	29.033
10.431	8.838	2.900	3.618	29.054
10.441	8.872	2.885	3.598	29.042
10.451	8.824	2.842	3.627	29.027
10.462	8.838	2.857	3.608	29.027
10.471	8.848	2.881	3.646	29.030
10.482	8.819	2.833	3.613	29.033
10.492	8.843	2.881	3.627	29.027
10.502	8.843	2.857	3.642	29.027
10.513	8.853	2.862	3.622	29.033
10.522	8.838	2.852	3.642	29.033
10.532	8.843	2.876	3.603	29.021
10.542	8.833	2.842	3.632	29.030
10.552	8.857	2.895	3.603	29.024
10.562	8.900	2.905	3.627	29.030
10.572	8.790	2.814	3.637	29.030
10.582	8.848	2.862	3.613	29.015
10.592	8.915	2.933	3.584	29.018
10.602	8.790	2.814	3.637	29.033
10.612	8.853	2.862	3.622	29.027
10.623	8.857	2.890	3.603	29.021
10.632	8.819	2.847	3.637	29.033
10.643	8.838	2.862	3.613	29.030
10.652	8.833	2.885	3.618	29.042
10.662	8.805	2.847	3.622	29.045
10.673	8.876	2.900	3.632	29.039
10.682	8.848	2.866	3.632	29.036
10.693	8.824	2.857	3.642	29.021
10.702	8.857	2.862	3.632	29.033
10.712	8.838	2.857	3.608	29.021
10.723	8.843	2.857	3.622	29.027
10.733	8.843	2.885	3.608	29.021
10.743	8.843	2.876	3.603	29.021
10.753	8.876	2.876	3.598	29.033
10.763	8.920	2.900	3.431	29.033
10.772	8.920	2.756	3.718	29.030
10.782	8.819	2.661	3.570	29.045
10.793	8.824	2.761	3.905	29.027
10.803	9.025	2.943	3.493	29.027
10.813	8.613	3.134	3.575	29.042
10.823	8.958	3.106	3.450	29.045
10.833	8.967	2.881	3.670	29.045
10.843	8.723	2.708	3.579	29.045
10.853	8.996	3.120	3.536	29.027
10.863	8.685	2.862	3.656	29.018
10.873	8.924	2.972	3.493	29.039
10.883	8.742	2.795	3.775	29.033
10.893	8.905	2.967	3.498	29.036
10.904	8.752	2.842	3.613	29.045
10.913	8.843	2.952	3.618	29.036
10.923	8.824	2.847	3.570	29.039
10.933	8.872	2.929	3.694	29.027
10.943	8.781	2.838	3.536	29.018
10.953	8.905	2.890	3.670	29.018
10.964	8.833	2.857	3.637	29.009
10.974	8.853	2.885	3.584	29.027
10.984	8.857	2.847	3.689	29.033
10.994	8.867	2.890	3.598	29.033
11.004	8.809	2.852	3.622	29.030
11.014	8.881	2.852	3.622	29.033
11.024	8.843	2.866	3.594	29.024
11.033	8.853	2.909	3.642	29.024
11.044	8.829	2.866	3.603	29.024
11.054	8.833	2.876	3.603	29.033
11.064	8.838	2.909	3.613	29.024
11.074	8.814	2.890	3.613	29.021
11.084	8.829	2.881	3.594	29.018
11.094	8.829	2.905	3.613	29.021
11.104	8.824	2.881	3.637	29.018
11.114	8.848	2.885	3.579	29.024
11.124	8.876	2.914	3.608	29.027
11.134	8.824	2.866	3.589	29.027
11.144	8.848	2.881	3.603	29.009
11.154	8.833	2.890	3.627	29.006
11.164	8.838	2.881	3.608	28.995
11.175	8.843	2.857	3.618	28.998
11.184	8.872	2.871	3.603	29.006
11.194	8.202	2.522	3.819	29.015
11.204	9.135	2.527	3.728	29.009
11.215	8.872	2.905	3.603	29.004
11.225	9.020	2.728	3.637	29.021
11.235	8.809	2.948	3.512	29.027
11.244	8.843	3.292	3.570	29.027
11.254	8.604	2.909	3.498	29.015
11.265	9.006	2.857	3.723	29.018
11.275	9.034	2.661	3.584	29.024
11.284	8.929	2.799	3.665	29.033
11.295	8.728	2.981	3.493	29.021
11.304	8.857	3.000	3.555	29.015
11.315	8.896	3.000	3.584	29.015
11.326	8.685	2.967	3.618	29.024
11.335	8.843	3.168	3.498	29.021
11.345	8.733	2.871	3.608	29.018
11.355	8.987	2.948	3.560	29.015
11.366	8.853	2.790	3.670	29.015
11.375	8.929	3.015	3.546	29.012
11.385	8.881	3.053	3.436	29.015
11.395	8.943	3.067	3.603	29.009
11.405	8.790	2.909	3.579	29.024
11.415	8.958	3.053	3.627	29.015
11.426	8.862	2.804	3.670	29.012
11.435	8.690	2.680	3.694	29.012
11.445	9.073	2.981	3.613	29.021
11.456	9.010	2.962	3.603	29.012
11.465	8.829	2.885	3.704	29.006
11.476	8.939	3.010	3.508	29.015
11.486	8.666	2.718	3.823	29.033
11.496	8.996	3.034	3.402	29.027
11.506	8.857	2.909	3.747	29.015
11.516	8.824	2.876	3.527	29.021
11.525	8.848	2.914	3.699	29.012
11.536	8.838	2.957	3.598	29.018
11.546	8.757	2.924	3.646	29.024
11.556	8.762	2.895	3.598	29.027
11.565	8.843	2.948	3.517	29.024
11.575	8.848	2.952	3.646	29.015
11.586	8.738	2.852	3.575	29.021
11.596	8.872	2.981	3.598	29.018
11.606	8.824	2.914	3.579	29.012
11.616	8.853	2.962	3.613	29.006
11.626	8.728	2.795	3.584	29.021
11.636	8.967	2.962	3.656	29.018
11.647	8.848	2.885	3.661	29.027
11.657	8.896	2.881	3.598	29.024
11.666	8.872	2.876	3.646	29.021
11.677	8.843	2.866	3.594	29.021
11.687	8.829	2.914	3.584	29.018
11.697	8.800	2.852	3.627	29.018
11.707	8.848	2.871	3.603	29.027
11.717	8.814	2.900	3.651	29.018
11.727	8.819	2.895	3.622	29.021
11.737	8.853	2.919	3.675	29.018
11.747	8.843	2.943	3.613	29.021
11.757	8.790	2.876	3.651	29.009
11.767	8.848	2.914	3.618	29.015
11.777	8.824	2.943	3.632	29.009
11.787	8.814	2.924	3.608	29.006
11.797	8.809	2.905	3.632	29.009
11.807	8.838	2.924	3.603	29.012
11.817	8.829	2.890	3.613	29.027
11.827	8.824	2.900	3.584	29.024
11.837	8.833	2.919	3.589	29.012
11.847	8.848	2.890	3.598	28.989
11.857	8.819	2.885	3.598	29.004
11.867	8.829	2.905	3.618	29.012
11.877	8.824	2.881	3.642	29.006
11.887	8.848	2.905	3.637	29.012
11.898	8.833	2.905	3.618	29.024
11.908	8.853	2.900	3.632	29.024
11.918	8.838	2.890	3.637	29.009
11.927	8.848	2.885	3.608	29.004
11.937	8.829	2.890	3.618	29.012
11.947	8.848	2.900	3.594	29.015
11.957	8.824	2.881	3.613	29.004
11.967	8.853	2.900	3.608	29.009
11.977	8.824	2.900	3.618	29.018
11.987	8.833	2.919	3.598	29.006
11.997	8.814	2.909	3.603	29.006
12.007	8.824	2.900	3.618	29.001
12.017	8.829	2.924	3.656	28.998
12.027	8.819	2.905	3.618	29.004
12.038	8.790	2.919	3.622	29.021
12.048	8.843	2.929	3.579	29.018
12.058	8.814	2.919	3.598	29.006
12.068	8.853	2.924	3.618	29.004
12.078	8.843	2.943	3.603	29.009
12.088	8.824	2.914	3.608	29.021
12.098	8.819	2.933	3.632	29.004
12.108	8.819	2.909	3.613	29.009
12.119	8.833	2.909	3.570	29.009
12.128	8.833	2.890	3.632	29.009
12.138	8.862	2.909	3.632	29.018
12.148	8.824	2.885	3.637	29.012
12.158	8.829	2.900	3.613	29.021
12.169	8.833	2.914	3.622	29.015
12.178	8.838	2.914	3.589	29.009
12.188	8.848	2.909	3.589	29.021
12.198	8.833	2.909	3.594	29.021
12.209	8.814	2.905	3.613	29.015
12.219	8.829	2.895	3.603	29.015
12.229	8.829	2.890	3.589	29.012
12.239	8.819	2.919	3.589	28.992
12.249	8.824	2.909	3.598	28.995
12.258	8.819	2.905	3.618	29.004
12.268	8.843	2.914	3.613	29.009
12.279	8.829	2.919	3.584	29.009
12.289	8.838	2.909	3.622	29.018
12.299	8.829	2.909	3.618	29.018
12.309	8.809	2.900	3.608	29.015
12.319	8.824	2.905	3.608	29.018
12.329	8.814	2.885	3.627	29.015
12.339	8.819	2.914	3.594	29.021
12.349	8.824	2.900	3.618	29.021
12.359	8.853	2.905	3.594	29.027
12.369	8.824	2.900	3.627	29.015
12.379	8.829	2.885	3.618	29.015
12.389	8.833	2.895	3.637	29.021
12.399	8.833	2.885	3.608	29.015
12.409	8.843	2.905	3.618	29.012
12.419	8.833	2.914	3.613	29.004
12.430	8.843	2.909	3.637	29.006
12.440	8.824	2.905	3.642	29.015
12.450	8.824	2.905	3.613	29.021
12.459	8.848	2.900	3.598	29.018
12.469	8.833	2.885	3.613	29.009
12.479	8.824	2.885	3.603	29.009
12.490	8.829	2.909	3.603	29.021
12.500	8.833	2.914	3.613	29.021
12.510	8.824	2.905	3.594	29.018
12.520	8.814	2.900	3.618	29.012
12.530	8.843	2.914	3.613	29.012
12.540	8.833	2.909	3.632	29.004
12.550	8.843	2.905	3.594	29.015
12.560	8.833	2.885	3.613	29.009
12.570	8.819	2.924	3.589	29.012
12.579	8.814	2.905	3.598	29.009
12.590	8.838	2.885	3.589	29.009
12.600	8.833	2.895	3.622	29.006
12.610	8.824	2.900	3.618	29.015
12.620	8.790	2.881	3.680	29.009
12.631	8.838	2.909	3.551	29.021
12.640	8.814	2.704	3.383	29.018
12.650	8.853	2.756	3.833	29.015
12.660	8.867	3.039	3.541	29.030
12.670	8.762	3.067	3.589	29.021
12.680	8.848	2.924	3.651	29.021
12.691	8.972	2.914	3.579	29.009
12.700	8.848	2.890	3.675	29.006
12.711	8.786	2.957	3.603	29.001
12.721	8.843	2.967	3.565	29.015
12.730	8.838	2.900	3.589	29.018
12.741	8.891	2.952	3.622	29.009
12.751	9.006	3.053	3.613	29.006
12.761	8.948	2.996	3.589	29.015
12.771	8.752	2.871	3.560	29.024
12.781	8.857	2.909	3.627	29.009
12.791	8.934	3.000	3.565	29.001
12.801	8.714	2.795	3.689	29.001
12.811	8.929	2.991	3.527	29.009
12.820	8.714	2.804	3.713	29.006
12.832	8.982	3.077	3.579	29.015
12.841	8.680	2.737	3.646	29.015
